Freq(MHz)	Sens(dB re. 1V/uPa)	Sens(V/Pa)	Sens(V^2cm^2/W)	Cap(pF)
0.25	-257.93	1.270E-07	2.42E-04	213.289
0.3	-256.08	1.570E-07	3.70E-04	213.041
0.35	-255.81	1.621E-07	3.94E-04	212.798
0.4	-255.15	1.748E-07	4.58E-04	212.563
0.45	-254.65	1.852E-07	5.14E-04	212.335
0.5	-254.76	1.829E-07	5.02E-04	212.114
0.55	-254.58	1.866E-07	5.22E-04	211.899
0.6	-254.58	1.865E-07	5.22E-04	211.692
0.65	-254.5	1.884E-07	5.32E-04	211.491
0.7	-254.5	1.884E-07	5.33E-04	211.296
0.75	-254.86	1.806E-07	4.89E-04	211.109
0.8	-255	1.777E-07	4.74E-04	210.927
0.85	-255.59	1.661E-07	4.14E-04	210.752
0.9	-255.82	1.618E-07	3.93E-04	210.583
0.95	-256.53	1.490E-07	3.33E-04	210.42
1	-257.27	1.369E-07	2.81E-04	210.264
1	-257.04	1.406E-07	2.97E-04	208.266
1.05	-258.27	1.221E-07	2.24E-04	208.118
1.1	-259.41	1.071E-07	1.72E-04	207.977
1.15	-260.01	9.991E-08	1.50E-04	207.841
1.2	-260.49	9.454E-08	1.34E-04	207.711
1.25	-260.72	9.207E-08	1.27E-04	207.587
1.3	-260.61	9.318E-08	1.30E-04	207.469
1.35	-260.09	9.902E-08	1.47E-04	207.356
1.4	-259.66	1.040E-07	1.62E-04	207.249
1.45	-259.01	1.120E-07	1.88E-04	207.148
1.5	-258.54	1.183E-07	2.10E-04	207.052
1.55	-258.41	1.200E-07	2.16E-04	206.961
1.6	-258.07	1.249E-07	2.34E-04	206.875
1.65	-257.59	1.320E-07	2.61E-04	206.795
1.7	-257.15	1.388E-07	2.89E-04	206.719
1.75	-256.64	1.472E-07	3.25E-04	206.649
1.8	-256.62	1.476E-07	3.27E-04	206.583
1.85	-256.54	1.490E-07	3.33E-04	206.523
1.9	-256.28	1.535E-07	3.54E-04	206.467
1.95	-256.49	1.498E-07	3.37E-04	206.419
2	-257.39	1.350E-07	2.73E-04	206.376
2.05	-258.4	1.202E-07	2.17E-04	206.333
2.1	-259.11	1.108E-07	1.84E-04	206.293
2.15	-258.71	1.160E-07	2.02E-04	206.261
2.2	-258.45	1.195E-07	2.14E-04	206.233
2.25	-258.57	1.179E-07	2.08E-04	206.209
2.3	-258.51	1.187E-07	2.11E-04	206.19
2.35	-258.47	1.192E-07	2.13E-04	206.176
2.4	-258.6	1.175E-07	2.07E-04	206.166
2.45	-258.55	1.182E-07	2.10E-04	206.16
2.5	-258.3	1.216E-07	2.22E-04	206.158
2.55	-258.14	1.239E-07	2.30E-04	206.161
2.6	-258.21	1.230E-07	2.27E-04	206.167
2.65	-258.04	1.253E-07	2.36E-04	206.178
2.7	-258.09	1.246E-07	2.33E-04	206.192
2.75	-257.74	1.297E-07	2.52E-04	206.21
2.8	-258.08	1.247E-07	2.33E-04	206.232
2.85	-258.1	1.245E-07	2.32E-04	206.258
2.9	-257.9	1.274E-07	2.43E-04	206.288
2.95	-257.79	1.289E-07	2.49E-04	206.321
3	-257.82	1.286E-07	2.48E-04	206.358
3.05	-257.92	1.271E-07	2.42E-04	206.398
3.1	-257.89	1.275E-07	2.44E-04	206.442
3.15	-257.7	1.303E-07	2.55E-04	206.49
3.2	-257.63	1.314E-07	2.59E-04	206.54
3.25	-257.92	1.270E-07	2.42E-04	206.595
3.3	-258.25	1.223E-07	2.24E-04	206.652
3.35	-258.23	1.226E-07	2.25E-04	206.713
3.4	-258.13	1.240E-07	2.31E-04	206.777
3.45	-258.15	1.237E-07	2.30E-04	206.844
3.5	-258.54	1.183E-07	2.10E-04	206.914
3.55	-258.87	1.140E-07	1.95E-04	206.988
3.6	-258.81	1.147E-07	1.97E-04	207.064
3.65	-258.66	1.167E-07	2.04E-04	207.144
3.7	-258.35	1.209E-07	2.19E-04	207.226
3.75	-258.46	1.194E-07	2.14E-04	207.312
3.8	-258.28	1.220E-07	2.23E-04	207.4
3.85	-257.88	1.276E-07	2.44E-04	207.491
3.9	-257.73	1.299E-07	2.53E-04	207.585
3.95	-257.29	1.367E-07	2.80E-04	207.682
4	-257.37	1.354E-07	2.75E-04	207.782
4.05	-256.92	1.425E-07	3.05E-04	207.884
4.1	-256.85	1.438E-07	3.10E-04	207.989
4.15	-256.75	1.454E-07	3.17E-04	208.096
4.2	-256.49	1.497E-07	3.36E-04	208.206
4.25	-256.45	1.505E-07	3.40E-04	208.319
4.3	-256.87	1.433E-07	3.08E-04	208.434
4.35	-257.01	1.411E-07	2.99E-04	208.552
4.4	-257.14	1.391E-07	2.90E-04	208.672
4.45	-257.21	1.379E-07	2.85E-04	208.794
4.5	-257.33	1.360E-07	2.78E-04	208.919
4.55	-257.53	1.329E-07	2.65E-04	209.046
4.6	-257.53	1.329E-07	2.65E-04	209.176
4.65	-257.47	1.338E-07	2.69E-04	209.308
4.7	-257.54	1.327E-07	2.64E-04	209.442
4.75	-257.66	1.309E-07	2.57E-04	209.578
4.8	-257.49	1.336E-07	2.68E-04	209.716
4.85	-257.37	1.354E-07	2.75E-04	209.857
4.9	-257.34	1.358E-07	2.77E-04	209.999
4.95	-257.2	1.380E-07	2.86E-04	210.144
5	-257.02	1.409E-07	2.98E-04	210.291
5.05	-256.84	1.438E-07	3.10E-04	210.44
5.1	-256.72	1.458E-07	3.19E-04	210.591
5.15	-256.54	1.489E-07	3.32E-04	210.743
5.2	-256.34	1.524E-07	3.48E-04	210.898
5.25	-256.29	1.533E-07	3.53E-04	211.055
5.3	-256.32	1.528E-07	3.50E-04	211.214
5.35	-256.29	1.533E-07	3.53E-04	211.374
5.4	-256.27	1.536E-07	3.54E-04	211.537
5.45	-256.18	1.552E-07	3.61E-04	211.701
5.5	-256.29	1.533E-07	3.53E-04	211.867
5.55	-256.35	1.522E-07	3.47E-04	212.035
5.6	-256.58	1.482E-07	3.30E-04	212.204
5.65	-256.61	1.477E-07	3.27E-04	212.376
5.7	-256.63	1.475E-07	3.26E-04	212.549
5.75	-256.7	1.463E-07	3.21E-04	212.724
5.8	-256.98	1.416E-07	3.01E-04	212.901
5.85	-256.75	1.454E-07	3.17E-04	213.079
5.9	-256.87	1.434E-07	3.09E-04	213.259
5.95	-257.02	1.410E-07	2.98E-04	213.441
6	-256.8	1.446E-07	3.13E-04	213.624
6.05	-257.12	1.393E-07	2.91E-04	213.809
6.1	-257.19	1.382E-07	2.87E-04	213.996
6.15	-257.24	1.374E-07	2.83E-04	214.184
6.2	-257.35	1.357E-07	2.76E-04	214.374
6.25	-256.81	1.444E-07	3.13E-04	214.565
6.3	-256.79	1.447E-07	3.14E-04	214.758
6.35	-256.97	1.417E-07	3.01E-04	214.952
6.4	-256.72	1.459E-07	3.19E-04	215.148
6.45	-256.68	1.465E-07	3.22E-04	215.346
6.5	-256.72	1.459E-07	3.19E-04	215.545
6.55	-256.74	1.456E-07	3.18E-04	215.745
6.6	-256.87	1.434E-07	3.09E-04	215.947
6.65	-256.56	1.486E-07	3.31E-04	216.151
6.7	-256.62	1.476E-07	3.27E-04	216.356
6.75	-256.64	1.472E-07	3.25E-04	216.563
6.8	-256.57	1.485E-07	3.31E-04	216.77
6.85	-256.66	1.469E-07	3.24E-04	216.98
6.9	-256.54	1.489E-07	3.33E-04	217.191
6.95	-256.61	1.478E-07	3.28E-04	217.403
7	-256.57	1.484E-07	3.30E-04	217.617
7.05	-256.6	1.479E-07	3.28E-04	217.832
7.1	-256.72	1.459E-07	3.19E-04	218.049
7.15	-256.59	1.481E-07	3.29E-04	218.267
7.2	-256.59	1.481E-07	3.29E-04	218.486
7.25	-256.62	1.476E-07	3.27E-04	218.707
7.3	-256.61	1.477E-07	3.27E-04	218.93
7.35	-256.47	1.501E-07	3.38E-04	219.154
7.4	-256.42	1.510E-07	3.42E-04	219.379
7.45	-256.45	1.505E-07	3.40E-04	219.606
7.5	-256.37	1.519E-07	3.46E-04	219.834
7.55	-256.3	1.530E-07	3.51E-04	220.063
7.6	-256.38	1.517E-07	3.45E-04	220.294
7.65	-256.37	1.519E-07	3.46E-04	220.527
7.7	-256.17	1.554E-07	3.62E-04	220.761
7.75	-256.19	1.550E-07	3.61E-04	220.996
7.8	-256.12	1.563E-07	3.67E-04	221.233
7.85	-256.2	1.549E-07	3.60E-04	221.471
7.9	-256.29	1.533E-07	3.52E-04	221.711
7.95	-256.26	1.538E-07	3.55E-04	221.952
8	-256.24	1.542E-07	3.56E-04	222.195
8.05	-256.25	1.539E-07	3.56E-04	222.439
8.1	-256.42	1.510E-07	3.42E-04	222.685
8.15	-256.3	1.531E-07	3.52E-04	222.932
8.2	-256.46	1.504E-07	3.39E-04	223.181
8.25	-256.35	1.522E-07	3.48E-04	223.432
8.3	-256.41	1.512E-07	3.43E-04	223.683
8.35	-256.31	1.529E-07	3.51E-04	223.937
8.4	-256.48	1.499E-07	3.37E-04	224.192
8.45	-256.44	1.506E-07	3.40E-04	224.449
8.5	-256.36	1.520E-07	3.47E-04	224.707
8.55	-256.28	1.535E-07	3.53E-04	224.966
8.6	-256.37	1.519E-07	3.46E-04	225.228
8.65	-256.29	1.532E-07	3.52E-04	225.491
8.7	-256.35	1.523E-07	3.48E-04	225.756
8.75	-256.28	1.535E-07	3.53E-04	226.022
8.8	-256.17	1.553E-07	3.62E-04	226.29
8.85	-256.19	1.551E-07	3.61E-04	226.56
8.9	-256.32	1.528E-07	3.50E-04	226.831
8.95	-256.05	1.575E-07	3.72E-04	227.105
9	-256.04	1.577E-07	3.73E-04	227.379
9.05	-256.05	1.576E-07	3.73E-04	227.656
9.1	-256.02	1.581E-07	3.75E-04	227.935
9.15	-256.09	1.569E-07	3.69E-04	228.215
9.2	-255.96	1.592E-07	3.80E-04	228.497
9.25	-255.88	1.606E-07	3.87E-04	228.782
9.3	-255.85	1.613E-07	3.90E-04	229.068
9.35	-256.01	1.583E-07	3.76E-04	229.355
9.4	-255.78	1.625E-07	3.96E-04	229.645
9.45	-255.7	1.640E-07	4.04E-04	229.937
9.5	-255.88	1.606E-07	3.87E-04	230.231
9.55	-255.66	1.648E-07	4.07E-04	230.527
9.6	-255.81	1.620E-07	3.94E-04	230.824
9.65	-255.57	1.665E-07	4.16E-04	231.124
9.7	-255.64	1.652E-07	4.09E-04	231.426
9.75	-255.84	1.614E-07	3.91E-04	231.73
9.8	-255.83	1.617E-07	3.92E-04	232.037
9.85	-255.89	1.604E-07	3.86E-04	232.345
9.9	-255.66	1.647E-07	4.07E-04	232.656
9.95	-255.7	1.641E-07	4.04E-04	232.969
10	-255.71	1.639E-07	4.03E-04	233.284
10.05	-255.81	1.621E-07	3.94E-04	233.601
10.1	-255.92	1.600E-07	3.84E-04	233.921
10.15	-255.98	1.589E-07	3.79E-04	234.243
10.2	-256.08	1.570E-07	3.70E-04	234.568
10.25	-255.8	1.621E-07	3.94E-04	234.895
10.3	-255.88	1.608E-07	3.88E-04	235.224
10.35	-256	1.584E-07	3.77E-04	235.556
10.4	-255.96	1.593E-07	3.80E-04	235.89
10.45	-255.82	1.619E-07	3.93E-04	236.227
10.5	-255.95	1.594E-07	3.81E-04	236.567
10.55	-256.01	1.583E-07	3.76E-04	236.909
10.6	-255.98	1.589E-07	3.79E-04	237.254
10.65	-255.88	1.607E-07	3.87E-04	237.602
10.7	-255.95	1.594E-07	3.81E-04	237.952
10.75	-255.97	1.591E-07	3.80E-04	238.306
10.8	-256.01	1.583E-07	3.76E-04	238.662
10.85	-255.9	1.604E-07	3.86E-04	239.021
10.9	-255.92	1.600E-07	3.84E-04	239.382
10.95	-255.96	1.593E-07	3.81E-04	239.747
11	-255.83	1.617E-07	3.92E-04	240.115
11.05	-255.95	1.594E-07	3.81E-04	240.486
11.1	-256.1	1.566E-07	3.68E-04	240.86
11.15	-256.03	1.579E-07	3.74E-04	241.237
11.2	-256.08	1.570E-07	3.70E-04	241.617
11.25	-255.92	1.599E-07	3.83E-04	242.001
11.3	-256.1	1.567E-07	3.68E-04	242.388
11.35	-255.94	1.596E-07	3.82E-04	242.778
11.4	-256.11	1.565E-07	3.67E-04	243.171
11.45	-256.05	1.576E-07	3.73E-04	243.568
11.5	-256.02	1.581E-07	3.75E-04	243.968
11.55	-255.97	1.591E-07	3.80E-04	244.372
11.6	-256	1.585E-07	3.77E-04	244.78
11.65	-256.05	1.576E-07	3.72E-04	245.191
11.7	-256.09	1.569E-07	3.69E-04	245.605
11.75	-256.27	1.537E-07	3.55E-04	246.024
11.8	-256.14	1.560E-07	3.65E-04	246.446
11.85	-256.29	1.532E-07	3.52E-04	246.872
11.9	-256.33	1.525E-07	3.49E-04	247.302
11.95	-256.43	1.509E-07	3.42E-04	247.736
12	-256.45	1.505E-07	3.40E-04	248.173
12.05	-256.23	1.544E-07	3.57E-04	248.615
12.1	-256.3	1.532E-07	3.52E-04	249.061
12.15	-256.35	1.523E-07	3.48E-04	249.511
12.2	-256.35	1.523E-07	3.48E-04	249.965
12.25	-256.33	1.525E-07	3.49E-04	250.424
12.3	-256.45	1.506E-07	3.40E-04	250.886
12.35	-256.55	1.487E-07	3.32E-04	251.353
12.4	-256.53	1.490E-07	3.33E-04	251.825
12.45	-256.49	1.498E-07	3.37E-04	252.301
12.5	-256.63	1.474E-07	3.26E-04	252.782
12.55	-256.66	1.469E-07	3.24E-04	253.267
12.6	-256.49	1.498E-07	3.37E-04	253.757
12.65	-256.6	1.479E-07	3.28E-04	254.251
12.7	-256.68	1.465E-07	3.22E-04	254.751
12.75	-256.62	1.476E-07	3.27E-04	255.255
12.8	-256.75	1.453E-07	3.17E-04	255.764
12.85	-256.77	1.450E-07	3.15E-04	256.278
12.9	-256.9	1.429E-07	3.06E-04	256.797
12.95	-256.87	1.433E-07	3.08E-04	257.322
13	-256.93	1.424E-07	3.04E-04	257.852
13.05	-256.83	1.440E-07	3.11E-04	258.386
13.1	-257.07	1.402E-07	2.95E-04	258.926
13.15	-257.05	1.404E-07	2.96E-04	259.472
13.2	-257.19	1.382E-07	2.87E-04	260.022
13.25	-256.92	1.426E-07	3.05E-04	260.579
13.3	-256.95	1.421E-07	3.03E-04	261.141
13.35	-257.08	1.399E-07	2.94E-04	261.709
13.4	-257.21	1.379E-07	2.85E-04	262.282
13.45	-257.12	1.394E-07	2.91E-04	262.861
13.5	-257.09	1.399E-07	2.93E-04	263.446
13.55	-257.2	1.380E-07	2.86E-04	264.037
13.6	-257.43	1.344E-07	2.71E-04	264.634
13.65	-257.41	1.347E-07	2.72E-04	265.237
13.7	-257.47	1.338E-07	2.69E-04	265.846
13.75	-257.37	1.354E-07	2.75E-04	266.462
13.8	-257.63	1.313E-07	2.59E-04	267.084
13.85	-257.39	1.351E-07	2.74E-04	267.713
13.9	-257.57	1.322E-07	2.62E-04	268.347
13.95	-257.65	1.311E-07	2.58E-04	268.989
14	-257.64	1.313E-07	2.59E-04	269.637
14.05	-257.66	1.309E-07	2.57E-04	270.292
14.1	-257.82	1.286E-07	2.48E-04	270.953
14.15	-257.89	1.276E-07	2.44E-04	271.621
14.2	-257.85	1.281E-07	2.46E-04	272.297
14.25	-257.84	1.283E-07	2.47E-04	272.979
14.3	-257.89	1.275E-07	2.44E-04	273.668
14.35	-258.08	1.248E-07	2.34E-04	274.365
14.4	-258.21	1.228E-07	2.26E-04	275.068
14.45	-258.01	1.258E-07	2.37E-04	275.779
14.5	-257.97	1.264E-07	2.40E-04	276.498
14.55	-258.01	1.258E-07	2.37E-04	277.224
14.6	-258.05	1.252E-07	2.35E-04	277.957
14.65	-258.3	1.217E-07	2.22E-04	278.698
14.7	-258.38	1.205E-07	2.18E-04	279.447
14.75	-258.37	1.206E-07	2.18E-04	280.204
14.8	-258.42	1.199E-07	2.16E-04	280.968
14.85	-258.37	1.206E-07	2.18E-04	281.741
14.9	-258.35	1.209E-07	2.19E-04	282.521
14.95	-258.2	1.231E-07	2.27E-04	283.311
15	-258.44	1.197E-07	2.15E-04	284.109
15.05	-258.76	1.153E-07	2.00E-04	284.915
15.1	-258.83	1.144E-07	1.96E-04	285.729
15.15	-258.79	1.149E-07	1.98E-04	286.553
15.2	-258.72	1.159E-07	2.02E-04	287.384
15.25	-258.53	1.184E-07	2.10E-04	288.225
15.3	-258.67	1.166E-07	2.04E-04	289.074
15.35	-258.88	1.138E-07	1.94E-04	289.932
15.4	-259.13	1.105E-07	1.83E-04	290.799
15.45	-259.16	1.101E-07	1.82E-04	291.675
15.5	-259.18	1.099E-07	1.81E-04	292.56
15.55	-259.26	1.089E-07	1.78E-04	293.455
15.6	-259.29	1.085E-07	1.77E-04	294.359
15.65	-259.24	1.092E-07	1.79E-04	295.272
15.7	-259.19	1.098E-07	1.81E-04	296.195
15.75	-259.14	1.104E-07	1.83E-04	297.127
15.8	-259.18	1.099E-07	1.81E-04	298.07
15.85	-259.21	1.095E-07	1.80E-04	299.023
15.9	-259.3	1.084E-07	1.76E-04	299.986
15.95	-259.27	1.088E-07	1.78E-04	300.96
16	-259.34	1.079E-07	1.75E-04	301.942
16.05	-259.59	1.049E-07	1.65E-04	302.936
16.1	-259.73	1.031E-07	1.60E-04	303.94
16.15	-259.61	1.046E-07	1.64E-04	304.954
16.2	-259.75	1.029E-07	1.59E-04	305.979
16.25	-260.02	9.980E-08	1.49E-04	307.014
16.3	-260.09	9.896E-08	1.47E-04	308.06
16.35	-259.93	1.008E-07	1.52E-04	309.117
16.4	-259.75	1.029E-07	1.59E-04	310.185
16.45	-259.67	1.039E-07	1.62E-04	311.264
16.5	-259.74	1.030E-07	1.59E-04	312.354
16.55	-259.75	1.029E-07	1.59E-04	313.455
16.6	-259.82	1.020E-07	1.56E-04	314.568
16.65	-259.96	1.005E-07	1.52E-04	315.693
16.7	-260.15	9.828E-08	1.45E-04	316.831
16.75	-260.27	9.694E-08	1.41E-04	317.979
16.8	-260.19	9.780E-08	1.44E-04	319.14
16.85	-260.28	9.685E-08	1.41E-04	320.312
16.9	-260.38	9.573E-08	1.38E-04	321.497
16.95	-260.47	9.478E-08	1.35E-04	322.694
17	-260.44	9.505E-08	1.36E-04	323.903
17.05	-260.29	9.676E-08	1.40E-04	325.124
17.1	-260.39	9.559E-08	1.37E-04	326.358
17.15	-260.55	9.384E-08	1.32E-04	327.605
17.2	-260.56	9.379E-08	1.32E-04	328.864
17.25	-260.58	9.351E-08	1.31E-04	330.136
17.3	-260.58	9.351E-08	1.31E-04	331.421
17.35	-260.5	9.438E-08	1.34E-04	332.72
17.4	-260.78	9.144E-08	1.25E-04	334.031
17.45	-260.99	8.927E-08	1.20E-04	335.356
17.5	-260.8	9.118E-08	1.25E-04	336.694
17.55	-260.74	9.187E-08	1.27E-04	338.047
17.6	-260.73	9.194E-08	1.27E-04	339.412
17.65	-260.75	9.170E-08	1.26E-04	340.791
17.7	-260.82	9.103E-08	1.24E-04	342.185
17.75	-261.06	8.855E-08	1.18E-04	343.593
17.8	-261.1	8.808E-08	1.16E-04	345.014
17.85	-261.13	8.779E-08	1.16E-04	346.45
17.9	-260.9	9.018E-08	1.22E-04	347.901
17.95	-260.99	8.923E-08	1.19E-04	349.366
18	-261.2	8.706E-08	1.14E-04	350.847
18.05	-261.21	8.703E-08	1.14E-04	352.342
18.1	-261.11	8.798E-08	1.16E-04	353.853
18.15	-261.3	8.613E-08	1.11E-04	355.378
18.2	-261.53	8.381E-08	1.05E-04	356.918
18.25	-261.43	8.480E-08	1.08E-04	358.473
18.3	-261.33	8.582E-08	1.11E-04	360.045
18.35	-261.39	8.522E-08	1.09E-04	361.632
18.4	-261.46	8.450E-08	1.07E-04	363.234
18.45	-261.46	8.452E-08	1.07E-04	364.852
18.5	-261.52	8.395E-08	1.06E-04	366.487
18.55	-261.37	8.539E-08	1.09E-04	368.137
18.6	-261.45	8.467E-08	1.08E-04	369.804
18.65	-261.45	8.460E-08	1.07E-04	371.486
18.7	-261.77	8.161E-08	9.99E-05	373.186
18.75	-261.81	8.122E-08	9.89E-05	374.902
18.8	-261.54	8.377E-08	1.05E-04	376.635
18.85	-261.56	8.355E-08	1.05E-04	378.384
18.9	-261.71	8.216E-08	1.01E-04	380.151
18.95	-261.81	8.120E-08	9.89E-05	381.935
19	-261.91	8.026E-08	9.66E-05	383.736
19.05	-262.06	7.892E-08	9.34E-05	385.555
19.1	-262.09	7.861E-08	9.27E-05	387.39
19.15	-261.97	7.974E-08	9.54E-05	389.244
19.2	-261.85	8.083E-08	9.80E-05	391.116
19.25	-261.96	7.978E-08	9.55E-05	393.006
19.3	-262.11	7.839E-08	9.22E-05	394.914
19.35	-262.03	7.915E-08	9.40E-05	396.839
19.4	-262.05	7.898E-08	9.36E-05	398.784
19.45	-262.23	7.734E-08	8.97E-05	400.747
19.5	-262.06	7.890E-08	9.34E-05	402.727
19.55	-262.12	7.832E-08	9.20E-05	404.728
19.6	-262.48	7.520E-08	8.48E-05	406.747
19.65	-262.38	7.607E-08	8.68E-05	408.786
19.7	-262.22	7.746E-08	9.00E-05	410.844
19.75	-262.31	7.667E-08	8.82E-05	412.921
19.8	-262.06	7.890E-08	9.34E-05	415.018
19.85	-262.14	7.817E-08	9.17E-05	417.135
19.9	-262.33	7.649E-08	8.78E-05	419.271
19.95	-262.25	7.719E-08	8.94E-05	421.429
20	-262.04	7.909E-08	9.38E-05	423.603
